File: MetalliSense.metal_grade_specs.csv
_id,metal_grade,grade_type,grade_family,applications[0],applications[1],applications[2],applications[3],composition_range.Fe[0],composition_range.Fe[1],composition_range.C[0],composition_range.C[1],composition_range.Si[0],composition_range.Si[1],composition_range.Mn[0],composition_range.Mn[1],composition_range.P[0],composition_range.P[1],composition_range.S[0],composition_range.S[1],composition_range.Cr[0],composition_range.Cr[1],composition_range.Ni[0],composition_range.Ni[1],composition_range.Mo[0],composition_range.Mo[1],composition_range.Cu[0],composition_range.Cu[1],mechanical_properties.tensile_strength_mpa,mechanical_properties.hardness_hb,mechanical_properties.elongation_percent,created_at,composition_range.Mg[0],composition_range.Mg[1],mechanical_properties.yield_strength_mpa,composition_range.Ti[0],composition_range.Ti[1],heat_treatment.austenitizing_temp_c,heat_treatment.austempering_temp_c,heat_treatment.time_hours,corrosion_resistance,temperature_resistance_c,chemical_resistance,composition_range.V[0],composition_range.V[1],composition_range.Nb[0],composition_range.Nb[1],special_properties
68932b5750952d032e832b87,CI-100-V1,CI,Cast Iron,Automotive,Industrial,Construction,,85,92,2.8,3.6,1.2,1.8,0.3,1,0.02,0.15,0.02,0.12,0,0.3,0,0.2,0,0.1,0,0.4,100,120,0.3,2025-08-06T10:15:45.297Z,,,,,,,,,,,,,,,,
68932b5750952d032e832b88,CI-100-V2,CI,Cast Iron,Automotive,Industrial,Construction,,86,93,3,3.8,1.3,1.9,0.4,1.1,0.02,0.15,0.02,0.12,0,0.4,0,0.25,0,0.1,0,0.5,120,130,0.5,2025-08-06T10:15:45.297Z,,,,,,,,,,,,,,,,
68932b5750952d032e832b89,CI-100-V3,CI,Cast Iron,Automotive,Industrial,Construction,,87,94,3.2,4,1.4,2,0.5,1.2,0.02,0.15,0.02,0.12,0,0.5,0,0.3,0,0.1,0,0.6,140,140,0.7,2025-08-06T10:15:45.297Z,,,,,,,,,,,,,,,,
68932b5750952d032e832b8a,CI-150-V1,CI,Cast Iron,Automotive,Industrial,Construction,,85,92,2.95,3.75,1.3,1.9,0.3,1,0.02,0.15,0.02,0.12,0,0.3,0,0.2,0,0.1,0,0.4,110,125,0.3,2025-08-06T10:15:45.297Z,,,,,,,,,,,,,,,,
68932b5750952d032e832b8b,CI-150-V2,CI,Cast Iron,Automotive,Industrial,Construction,,86,93,3.15,3.95,1.4,2,0.4,1.1,0.02,0.15,0.02,0.12,0,0.4,0,0.25,0,0.1,0,0.5,130,135,0.5,2025-08-06T10:15:45.297Z,,,,,,,,,,,,,,,,
68932b5750952d032e832b8c,CI-150-V3,CI,Cast Iron,Automotive,Industrial,Construction,,87,94,3.35,4.15,1.5,2.1,0.5,1.2,0.02,0.15,0.02,0.12,0,0.5,0,0.3,0,0.1,0,0.6,150,145,0.7,2025-08-06T10:15:45.297Z,,,,,,,,,,,,,,,,
68932b5750952d032e832b8d,CI-200-V1,CI,Cast Iron,Automotive,Industrial,Construction,,85,92,3.1,3.9,1.4,2,0.3,1,0.02,0.15,0.02,0.12,0,0.3,0,0.2,0,0.1,0,0.4,120,130,0.3,2025-08-06T10:15:45.297Z,,,,,,,,,,,,,,,,
68932b5750952d032e832b8e,CI-200-V2,CI,Cast Iron,Automotive,Industrial,Construction,,86,93,3.3,4.1,1.5,2.1,0.4,1.1,0.02,0.15,0.02,0.12,0,0.4,0,0.25,0,0.1,0,0.5,140,140,0.5,2025-08-06T10:15:45.298Z,,,,,,,,,,,,,,,,
68932b5750952d032e832b8f,CI-200-V3,CI,Cast Iron,Automotive,Industrial,Construction,,87,94,3.5,4.3,1.6,2.2,0.5,1.2,0.02,0.15,0.02,0.12,0,0.5,0,0.3,0,0.1,0,0.6,160,150,0.7,2025-08-06T10:15:45.298Z,,,,,,,,,,,,,,,,
68932b5750952d032e832b90,CI-250-V1,CI,Cast Iron,Automotive,Industrial,Construction,,85,92,3.25,4.05,1.5,2.1,0.3,1,0.02,0.15,0.02,0.12,0,0.3,0,0.2,0,0.1,0,0.4,130,135,0.3,2025-08-06T10:15:45.298Z,,,,,,,,,,,,,,,,
68932b5750952d032e832b91,CI-250-V2,CI,Cast Iron,Automotive,Industrial,Construction,,86,93,3.45,4.25,1.6,2.2,0.4,1.1,0.02,0.15,0.02,0.12,0,0.4,0,0.25,0,0.1,0,0.5,150,145,0.5,2025-08-06T10:15:45.298Z,,,,,,,,,,,,,,,,
68932b5750952d032e832b92,CI-250-V3,CI,Cast Iron,Automotive,Industrial,Construction,,87,94,3.65,4.45,1.7,2.3,0.5,1.2,0.02,0.15,0.02,0.12,0,0.5,0,0.3,0,0.1,0,0.6,170,155,0.7,2025-08-06T10:15:45.298Z,,,,,,,,,,,,,,,,
68932b5750952d032e832b93,CI-300-V1,CI,Cast Iron,Automotive,Industrial,Construction,,85,92,3.4,4.2,1.6,2.2,0.3,1,0.02,0.15,0.02,0.12,0,0.3,0,0.2,0,0.1,0,0.4,140,140,0.3,2025-08-06T10:15:45.298Z,,,,,,,,,,,,,,,,
68932b5750952d032e832b94,CI-300-V2,CI,Cast Iron,Automotive,Industrial,Construction,,86,93,3.6,4.4,1.7,2.3,0.4,1.1,0.02,0.15,0.02,0.12,0,0.4,0,0.25,0,0.1,0,0.5,160,150,0.5,2025-08-06T10:15:45.298Z,,,,,,,,,,,,,,,,
68932b5750952d032e832b95,CI-300-V3,CI,Cast Iron,Automotive,Industrial,Construction,,87,94,3.8,4.6,1.8,2.4,0.5,1.2,0.02,0.15,0.02,0.12,0,0.5,0,0.3,0,0.1,0,0.6,180,160,0.7,2025-08-06T10:15:45.298Z,,,,,,,,,,,,,,,,
68932b5750952d032e832b96,CI-350-V1,CI,Cast Iron,Automotive,Industrial,Construction,,85,92,3.55,4.35,1.7,2.3,0.3,1,0.02,0.15,0.02,0.12,0,0.3,0,0.2,0,0.1,0,0.4,150,145,0.3,2025-08-06T10:15:45.298Z,,,,,,,,,,,,,,,,
68932b5750952d032e832b97,CI-350-V2,CI,Cast Iron,Automotive,Industrial,Construction,,86,93,3.75,4.55,1.8,2.4,0.4,1.1,0.02,0.15,0.02,0.12,0,0.4,0,0.25,0,0.1,0,0.5,170,155,0.5,2025-08-06T10:15:45.298Z,,,,,,,,,,,,,,,,
68932b5750952d032e832b98,CI-350-V3,CI,Cast Iron,Automotive,Industrial,Construction,,87,94,3.95,4.75,1.9,2.5,0.5,1.2,0.02,0.15,0.02,0.12,0,0.5,0,0.3,0,0.1,0,0.6,190,165,0.7,2025-08-06T10:15:45.298Z,,,,,,,,,,,,,,,,
68932b5750952d032e832b99,CI-400-V1,CI,Cast Iron,Automotive,Industrial,Construction,,85,92,3.7,4.5,1.8,2.4,0.3,1,0.02,0.15,0.02,0.12,0,0.3,0,0.2,0,0.1,0,0.4,160,150,0.3,2025-08-06T10:15:45.298Z,,,,,,,,,,,,,,,,
68932b5750952d032e832b9a,CI-400-V2,CI,Cast Iron,Automotive,Industrial,Construction,,86,93,3.9,4.7,1.9,2.5,0.4,1.1,0.02,0.15,0.02,0.12,0,0.4,0,0.25,0,0.1,0,0.5,180,160,0.5,2025-08-06T10:15:45.298Z,,,,,,,,,,,,,,,,
68932b5750952d032e832b9b,CI-400-V3,CI,Cast Iron,Automotive,Industrial,Construction,,87,94,4.1,4.9,2,2.6,0.5,1.2,0.02,0.15,0.02,0.12,0,0.5,0,0.3,0,0.1,0,0.6,200,170,0.7,2025-08-06T10:15:45.298Z,,,,,,,,,,,,,,,,
68932b5750952d032e832b9c,HT-150-V1,CI,Cast Iron,Automotive,Industrial,Construction,,85,92,3.85,4.65,1.9,2.5,0.3,1,0.02,0.15,0.02,0.12,0,0.3,0,0.2,0,0.1,0,0.4,170,155,0.3,2025-08-06T10:15:45.298Z,,,,,,,,,,,,,,,,
68932b5750952d032e832b9d,HT-150-V2,CI,Cast Iron,Automotive,Industrial,Construction,,86,93,4.05,4.85,2,2.6,0.4,1.1,0.02,0.15,0.02,0.12,0,0.4,0,0.25,0,0.1,0,0.5,190,165,0.5,2025-08-06T10:15:45.298Z,,,,,,,,,,,,,,,,
68932b5750952d032e832b9e,HT-150-V3,CI,Cast Iron,Automotive,Industrial,Construction,,87,94,4.25,5.05,2.1,2.7,0.5,1.2,0.02,0.15,0.02,0.12,0,0.5,0,0.3,0,0.1,0,0.6,210,175,0.7,2025-08-06T10:15:45.298Z,,,,,,,,,,,,,,,,
68932b5750952d032e832b9f,HT-200-V1,CI,Cast Iron,Automotive,Industrial,Construction,,85,92,4,4.8,2,2.6,0.3,1,0.02,0.15,0.02,0.12,0,0.3,0,0.2,0,0.1,0,0.4,180,160,0.3,2025-08-06T10:15:45.298Z,,,,,,,,,,,,,,,,
68932b5750952d032e832ba0,HT-200-V2,CI,Cast Iron,Automotive,Industrial,Construction,,86,93,4.2,5,2.1,2.7,0.4,1.1,0.02,0.15,0.02,0.12,0,0.4,0,0.25,0,0.1,0,0.5,200,170,0.5,2025-08-06T10:15:45.298Z,,,,,,,,,,,,,,,,
68932b5750952d032e832ba1,HT-200-V3,CI,Cast Iron,Automotive,Industrial,Construction,,87,94,4.4,5.2,2.2,2.8,0.5,1.2,0.02,0.15,0.02,0.12,0,0.5,0,0.3,0,0.1,0,0.6,220,180,0.7,2025-08-06T10:15:45.298Z,,,,,,,,,,,,,,,,
68932b5750952d032e832ba2,HT-250-V1,CI,Cast Iron,Automotive,Industrial,Construction,,85,92,4.15,4.95,2.1,2.7,0.3,1,0.02,0.15,0.02,0.12,0,0.3,0,0.2,0,0.1,0,0.4,190,165,0.3,2025-08-06T10:15:45.298Z,,,,,,,,,,,,,,,,
68932b5750952d032e832ba3,HT-250-V2,CI,Cast Iron,Automotive,Industrial,Construction,,86,93,4.35,5.15,2.2,2.8,0.4,1.1,0.02,0.15,0.02,0.12,0,0.4,0,0.25,0,0.1,0,0.5,210,175,0.5,2025-08-06T10:15:45.298Z,,,,,,,,,,,,,,,,
68932b5750952d032e832ba4,HT-250-V3,CI,Cast Iron,Automotive,Industrial,Construction,,87,94,4.55,5.35,2.3,2.9,0.5,1.2,0.02,0.15,0.02,0.12,0,0.5,0,0.3,0,0.1,0,0.6,230,185,0.7,2025-08-06T10:15:45.298Z,,,,,,,,,,,,,,,,
68932b5750952d032e832ba5,HT-300-V1,CI,Cast Iron,Automotive,Industrial,Construction,,85,92,2.8,3.6,2.2,2.8,0.3,1,0.02,0.15,0.02,0.12,0,0.3,0,0.2,0,0.1,0,0.4,200,170,0.3,2025-08-06T10:15:45.298Z,,,,,,,,,,,,,,,,
68932b5750952d032e832ba6,HT-300-V2,CI,Cast Iron,Automotive,Industrial,Construction,,86,93,3,3.8,2.3,2.9,0.4,1.1,0.02,0.15,0.02,0.12,0,0.4,0,0.25,0,0.1,0,0.5,220,180,0.5,2025-08-06T10:15:45.298Z,,,,,,,,,,,,,,,,
68932b5750952d032e832ba7,HT-300-V3,CI,Cast Iron,Automotive,Industrial,Construction,,87,94,3.2,4,2.4,3,0.5,1.2,0.02,0.15,0.02,0.12,0,0.5,0,0.3,0,0.1,0,0.6,240,190,0.7,2025-08-06T10:15:45.298Z,,,,,,,,,,,,,,,,
68932b5750952d032e832ba8,HT-350-V1,CI,Cast Iron,Automotive,Industrial,Construction,,85,92,2.95,3.75,2.3,2.9,0.3,1,0.02,0.15,0.02,0.12,0,0.3,0,0.2,0,0.1,0,0.4,210,175,0.3,2025-08-06T10:15:45.298Z,,,,,,,,,,,,,,,,
68932b5750952d032e832ba9,HT-350-V2,CI,Cast Iron,Automotive,Industrial,Construction,,86,93,3.15,3.95,2.4,3,0.4,1.1,0.02,0.15,0.02,0.12,0,0.4,0,0.25,0,0.1,0,0.5,230,185,0.5,2025-08-06T10:15:45.298Z,,,,,,,,,,,,,,,,
68932b5750952d032e832baa,HT-350-V3,CI,Cast Iron,Automotive,Industrial,Construction,,87,94,3.35,4.15,2.5,3.1,0.5,1.2,0.02,0.15,0.02,0.12,0,0.5,0,0.3,0,0.1,0,0.6,250,195,0.7,2025-08-06T10:15:45.298Z,,,,,,,,,,,,,,,,
68932b5750952d032e832bab,FC-100-V1,CI,Cast Iron,Automotive,Industrial,Construction,,85,92,3.1,3.9,2.4,3,0.3,1,0.02,0.15,0.02,0.12,0,0.3,0,0.2,0,0.1,0,0.4,220,180,0.3,2025-08-06T10:15:45.298Z,,,,,,,,,,,,,,,,
68932b5750952d032e832bac,FC-100-V2,CI,Cast Iron,Automotive,Industrial,Construction,,86,93,3.3,4.1,2.5,3.1,0.4,1.1,0.02,0.15,0.02,0.12,0,0.4,0,0.25,0,0.1,0,0.5,240,190,0.5,2025-08-06T10:15:45.298Z,,,,,,,,,,,,,,,,
68932b5750952d032e832bad,FC-100-V3,CI,Cast Iron,Automotive,Industrial,Construction,,87,94,3.5,4.3,2.6,3.2,0.5,1.2,0.02,0.15,0.02,0.12,0,0.5,0,0.3,0,0.1,0,0.6,260,200,0.7,2025-08-06T10:15:45.298Z,,,,,,,,,,,,,,,,
68932b5750952d032e832bae,FC-150-V1,CI,Cast Iron,Automotive,Industrial,Construction,,85,92,3.25,4.05,2.5,3.1,0.3,1,0.02,0.15,0.02,0.12,0,0.3,0,0.2,0,0.1,0,0.4,230,185,0.3,2025-08-06T10:15:45.298Z,,,,,,,,,,,,,,,,
68932b5750952d032e832baf,FC-150-V2,CI,Cast Iron,Automotive,Industrial,Construction,,86,93,3.45,4.25,2.6,3.2,0.4,1.1,0.02,0.15,0.02,0.12,0,0.4,0,0.25,0,0.1,0,0.5,250,195,0.5,2025-08-06T10:15:45.298Z,,,,,,,,,,,,,,,,
68932b5750952d032e832bb0,FC-150-V3,CI,Cast Iron,Automotive,Industrial,Construction,,87,94,3.65,4.45,2.7,3.3,0.5,1.2,0.02,0.15,0.02,0.12,0,0.5,0,0.3,0,0.1,0,0.6,270,205,0.7,2025-08-06T10:15:45.298Z,,,,,,,,,,,,,,,,
68932b5750952d032e832bb1,FC-200-V1,CI,Cast Iron,Automotive,Industrial,Construction,,85,92,3.4,4.2,2.6,3.2,0.3,1,0.02,0.15,0.02,0.12,0,0.3,0,0.2,0,0.1,0,0.4,240,190,0.3,2025-08-06T10:15:45.298Z,,,,,,,,,,,,,,,,
68932b5750952d032e832bb2,FC-200-V2,CI,Cast Iron,Automotive,Industrial,Construction,,86,93,3.6,4.4,2.7,3.3,0.4,1.1,0.02,0.15,0.02,0.12,0,0.4,0,0.25,0,0.1,0,0.5,260,200,0.5,2025-08-06T10:15:45.298Z,,,,,,,,,,,,,,,,
68932b5750952d032e832bb3,FC-200-V3,CI,Cast Iron,Automotive,Industrial,Construction,,87,94,3.8,4.6,2.8,3.4,0.5,1.2,0.02,0.15,0.02,0.12,0,0.5,0,0.3,0,0.1,0,0.6,280,210,0.7,2025-08-06T10:15:45.298Z,,,,,,,,,,,,,,,,
68932b5750952d032e832bb4,FC-250-V1,CI,Cast Iron,Automotive,Industrial,Construction,,85,92,3.55,4.35,2.7,3.3,0.3,1,0.02,0.15,0.02,0.12,0,0.3,0,0.2,0,0.1,0,0.4,250,195,0.3,2025-08-06T10:15:45.298Z,,,,,,,,,,,,,,,,
68932b5750952d032e832bb5,FC-250-V2,CI,Cast Iron,Automotive,Industrial,Construction,,86,93,3.75,4.55,2.8,3.4,0.4,1.1,0.02,0.15,0.02,0.12,0,0.4,0,0.25,0,0.1,0,0.5,270,205,0.5,2025-08-06T10:15:45.298Z,,,,,,,,,,,,,,,,
68932b5750952d032e832bb6,FC-250-V3,CI,Cast Iron,Automotive,Industrial,Construction,,87,94,3.95,4.75,2.9,3.5,0.5,1.2,0.02,0.15,0.02,0.12,0,0.5,0,0.3,0,0.1,0,0.6,290,215,0.7,2025-08-06T10:15:45.298Z,,,,,,,,,,,,,,,,
68932b5750952d032e832bb7,FC-300-V1,CI,Cast Iron,Automotive,Industrial,Construction,,85,92,3.7,4.5,2.8,3.4,0.3,1,0.02,0.15,0.02,0.12,0,0.3,0,0.2,0,0.1,0,0.4,260,200,0.3,2025-08-06T10:15:45.298Z,,,,,,,,,,,,,,,,
68932b5750952d032e832bb8,FC-300-V2,CI,Cast Iron,Automotive,Industrial,Construction,,86,93,3.9,4.7,2.9,3.5,0.4,1.1,0.02,0.15,0.02,0.12,0,0.4,0,0.25,0,0.1,0,0.5,280,210,0.5,2025-08-06T10:15:45.298Z,,,,,,,,,,,,,,,,
68932b5750952d032e832bb9,FC-300-V3,CI,Cast Iron,Automotive,Industrial,Construction,,87,94,4.1,4.9,3,3.6,0.5,1.2,0.02,0.15,0.02,0.12,0,0.5,0,0.3,0,0.1,0,0.6,300,220,0.7,2025-08-06T10:15:45.298Z,,,,,,,,,,,,,,,,
68932b5750952d032e832bba,CI-A-V1,CI,Cast Iron,Automotive,Industrial,Construction,,85,92,3.85,4.65,2.9,3.5,0.3,1,0.02,0.15,0.02,0.12,0,0.3,0,0.2,0,0.1,0,0.4,270,205,0.3,2025-08-06T10:15:45.298Z,,,,,,,,,,,,,,,,
68932b5750952d032e832bbb,CI-A-V2,CI,Cast Iron,Automotive,Industrial,Construction,,86,93,4.05,4.85,3,3.6,0.4,1.1,0.02,0.15,0.02,0.12,0,0.4,0,0.25,0,0.1,0,0.5,290,215,0.5,2025-08-06T10:15:45.298Z,,,,,,,,,,,,,,,,
68932b5750952d032e832bbc,CI-A-V3,CI,Cast Iron,Automotive,Industrial,Construction,,87,94,4.25,5.05,3.1,3.7,0.5,1.2,0.02,0.15,0.02,0.12,0,0.5,0,0.3,0,0.1,0,0.6,310,225,0.7,2025-08-06T10:15:45.298Z,,,,,,,,,,,,,,,,
68932b5750952d032e832bbd,CI-B-V1,CI,Cast Iron,Automotive,Industrial,Construction,,85,92,4,4.8,1.2,1.8,0.3,1,0.02,0.15,0.02,0.12,0,0.3,0,0.2,0,0.1,0,0.4,280,210,0.3,2025-08-06T10:15:45.298Z,,,,,,,,,,,,,,,,
68932b5750952d032e832bbe,CI-B-V2,CI,Cast Iron,Automotive,Industrial,Construction,,86,93,4.2,5,1.3,1.9,0.4,1.1,0.02,0.15,0.02,0.12,0,0.4,0,0.25,0,0.1,0,0.5,300,220,0.5,2025-08-06T10:15:45.298Z,,,,,,,,,,,,,,,,
68932b5750952d032e832bbf,CI-B-V3,CI,Cast Iron,Automotive,Industrial,Construction,,87,94,4.4,5.2,1.4,2,0.5,1.2,0.02,0.15,0.02,0.12,0,0.5,0,0.3,0,0.1,0,0.6,320,230,0.7,2025-08-06T10:15:45.298Z,,,,,,,,,,,,,,,,
68932b5750952d032e832bc0,CI-C-V1,CI,Cast Iron,Automotive,Industrial,Construction,,85,92,4.15,4.95,1.3,1.9,0.3,1,0.02,0.15,0.02,0.12,0,0.3,0,0.2,0,0.1,0,0.4,290,215,0.3,2025-08-06T10:15:45.298Z,,,,,,,,,,,,,,,,
68932b5750952d032e832bc1,CI-C-V2,CI,Cast Iron,Automotive,Industrial,Construction,,86,93,4.35,5.15,1.4,2,0.4,1.1,0.02,0.15,0.02,0.12,0,0.4,0,0.25,0,0.1,0,0.5,310,225,0.5,2025-08-06T10:15:45.298Z,,,,,,,,,,,,,,,,
68932b5750952d032e832bc2,CI-C-V3,CI,Cast Iron,Automotive,Industrial,Construction,,87,94,4.55,5.35,1.5,2.1,0.5,1.2,0.02,0.15,0.02,0.12,0,0.5,0,0.3,0,0.1,0,0.6,330,235,0.7,2025-08-06T10:15:45.298Z,,,,,,,,,,,,,,,,
68932b5750952d032e832bc3,CI-D-V1,CI,Cast Iron,Automotive,Industrial,Construction,,85,92,2.8,3.6,1.4,2,0.3,1,0.02,0.15,0.02,0.12,0,0.3,0,0.2,0,0.1,0,0.4,300,220,0.3,2025-08-06T10:15:45.298Z,,,,,,,,,,,,,,,,
68932b5750952d032e832bc4,CI-D-V2,CI,Cast Iron,Automotive,Industrial,Construction,,86,93,3,3.8,1.5,2.1,0.4,1.1,0.02,0.15,0.02,0.12,0,0.4,0,0.25,0,0.1,0,0.5,320,230,0.5,2025-08-06T10:15:45.298Z,,,,,,,,,,,,,,,,
68932b5750952d032e832bc5,CI-D-V3,CI,Cast Iron,Automotive,Industrial,Construction,,87,94,3.2,4,1.6,2.2,0.5,1.2,0.02,0.15,0.02,0.12,0,0.5,0,0.3,0,0.1,0,0.6,340,240,0.7,2025-08-06T10:15:45.298Z,,,,,,,,,,,,,,,,
68932b5750952d032e832bc6,DI-400-18-V1,DI,Ductile Iron,Automotive,Agricultural,Mining,Marine,88,95,3.2,3.8,2,2.8,0.15,0.8,0.01,0.08,0.008,0.025,0,0.15,0,0.5,0,0.25,0,0.8,400,140,10.5,2025-08-06T10:15:45.298Z,0.035,0.065,250,,,,,,,,,,,,,
68932b5750952d032e832bc7,DI-400-18-V2,DI,Ductile Iron,Automotive,Agricultural,Mining,Marine,88.5,95.3,3.3,3.9,2.2,3,0.2,0.9,0.01,0.08,0.008,0.025,0,0.2,0,0.6,0,0.3,0,0.9,415,145,11.5,2025-08-06T10:15:45.298Z,0.04,0.07,260,,,,,,,,,,,,,
68932b5750952d032e832bc8,DI-400-18-V3,DI,Ductile Iron,Automotive,Agricultural,Mining,Marine,89,95.6,3.4,4,2.4,3.2,0.25,1,0.01,0.08,0.008,0.025,0,0.25,0,0.7,0,0.35,0,1,430,150,12.5,2025-08-06T10:15:45.298Z,0.045,0.075,270,,,,,,,,,,,,,
68932b5750952d032e832bc9,DI-450-10-V1,DI,Ductile Iron,Automotive,Agricultural,Mining,Marine,88,95,3.2,3.8,2,2.8,0.15,0.8,0.01,0.08,0.008,0.025,0,0.15,0,0.5,0,0.25,0,0.8,425,148,10,2025-08-06T10:15:45.298Z,0.035,0.065,270,,,,,,,,,,,,,
68932b5750952d032e832bca,DI-450-10-V2,DI,Ductile Iron,Automotive,Agricultural,Mining,Marine,88.5,95.3,3.3,3.9,2.2,3,0.2,0.9,0.01,0.08,0.008,0.025,0,0.2,0,0.6,0,0.3,0,0.9,440,153,11,2025-08-06T10:15:45.298Z,0.04,0.07,280,,,,,,,,,,,,,
68932b5750952d032e832bcb,DI-450-10-V3,DI,Ductile Iron,Automotive,Agricultural,Mining,Marine,89,95.6,3.4,4,2.4,3.2,0.25,1,0.01,0.08,0.008,0.025,0,0.25,0,0.7,0,0.35,0,1,455,158,12,2025-08-06T10:15:45.298Z,0.045,0.075,290,,,,,,,,,,,,,
68932b5750952d032e832bcc,DI-500-7-V1,DI,Ductile Iron,Automotive,Agricultural,Mining,Marine,88,95,3.2,3.8,2,2.8,0.15,0.8,0.01,0.08,0.008,0.025,0,0.15,0,0.5,0,0.25,0,0.8,450,156,9.5,2025-08-06T10:15:45.298Z,0.035,0.065,290,,,,,,,,,,,,,
68932b5750952d032e832bcd,DI-500-7-V2,DI,Ductile Iron,Automotive,Agricultural,Mining,Marine,88.5,95.3,3.3,3.9,2.2,3,0.2,0.9,0.01,0.08,0.008,0.025,0,0.2,0,0.6,0,0.3,0,0.9,465,161,10.5,2025-08-06T10:15:45.298Z,0.04,0.07,300,,,,,,,,,,,,,
68932b5750952d032e832bce,DI-500-7-V3,DI,Ductile Iron,Automotive,Agricultural,Mining,Marine,89,95.6,3.4,4,2.4,3.2,0.25,1,0.01,0.08,0.008,0.025,0,0.25,0,0.7,0,0.35,0,1,480,166,11.5,2025-08-06T10:15:45.298Z,0.045,0.075,310,,,,,,,,,,,,,
68932b5750952d032e832bcf,DI-600-3-V1,DI,Ductile Iron,Automotive,Agricultural,Mining,Marine,88,95,3.2,3.8,2,2.8,0.15,0.8,0.01,0.08,0.008,0.025,0,0.15,0,0.5,0,0.25,0,0.8,475,164,9,2025-08-06T10:15:45.298Z,0.035,0.065,310,,,,,,,,,,,,,
68932b5750952d032e832bd0,DI-600-3-V2,DI,Ductile Iron,Automotive,Agricultural,Mining,Marine,88.5,95.3,3.3,3.9,2.2,3,0.2,0.9,0.01,0.08,0.008,0.025,0,0.2,0,0.6,0,0.3,0,0.9,490,169,10,2025-08-06T10:15:45.298Z,0.04,0.07,320,,,,,,,,,,,,,
68932b5750952d032e832bd1,DI-600-3-V3,DI,Ductile Iron,Automotive,Agricultural,Mining,Marine,89,95.6,3.4,4,2.4,3.2,0.25,1,0.01,0.08,0.008,0.025,0,0.25,0,0.7,0,0.35,0,1,505,174,11,2025-08-06T10:15:45.298Z,0.045,0.075,330,,,,,,,,,,,,,
68932b5750952d032e832bd2,DI-700-2-V1,DI,Ductile Iron,Automotive,Agricultural,Mining,Marine,88,95,3.2,3.8,2,2.8,0.15,0.8,0.01,0.08,0.008,0.025,0,0.15,0,0.5,0,0.25,0,0.8,500,172,8.5,2025-08-06T10:15:45.298Z,0.035,0.065,330,,,,,,,,,,,,,
68932b5750952d032e832bd3,DI-700-2-V2,DI,Ductile Iron,Automotive,Agricultural,Mining,Marine,88.5,95.3,3.3,3.9,2.2,3,0.2,0.9,0.01,0.08,0.008,0.025,0,0.2,0,0.6,0,0.3,0,0.9,515,177,9.5,2025-08-06T10:15:45.298Z,0.04,0.07,340,,,,,,,,,,,,,
68932b5750952d032e832bd4,DI-700-2-V3,DI,Ductile Iron,Automotive,Agricultural,Mining,Marine,89,95.6,3.4,4,2.4,3.2,0.25,1,0.01,0.08,0.008,0.025,0,0.25,0,0.7,0,0.35,0,1,530,182,10.5,2025-08-06T10:15:45.298Z,0.045,0.075,350,,,,,,,,,,,,,
68932b5750952d032e832bd5,DI-800-2-V1,DI,Ductile Iron,Automotive,Agricultural,Mining,Marine,88,95,3.2,3.8,2,2.8,0.15,0.8,0.01,0.08,0.008,0.025,0,0.15,0,0.5,0,0.25,0,0.8,525,180,8,2025-08-06T10:15:45.298Z,0.035,0.065,350,,,,,,,,,,,,,
68932b5750952d032e832bd6,DI-800-2-V2,DI,Ductile Iron,Automotive,Agricultural,Mining,Marine,88.5,95.3,3.3,3.9,2.2,3,0.2,0.9,0.01,0.08,0.008,0.025,0,0.2,0,0.6,0,0.3,0,0.9,540,185,9,2025-08-06T10:15:45.298Z,0.04,0.07,360,,,,,,,,,,,,,
68932b5750952d032e832bd7,DI-800-2-V3,DI,Ductile Iron,Automotive,Agricultural,Mining,Marine,89,95.6,3.4,4,2.4,3.2,0.25,1,0.01,0.08,0.008,0.025,0,0.25,0,0.7,0,0.35,0,1,555,190,10,2025-08-06T10:15:45.298Z,0.045,0.075,370,,,,,,,,,,,,,
68932b5750952d032e832bd8,SG-400-V1,DI,Ductile Iron,Automotive,Agricultural,Mining,Marine,88,95,3.2,3.8,2,2.8,0.15,0.8,0.01,0.08,0.008,0.025,0,0.15,0,0.5,0,0.25,0,0.8,550,188,7.5,2025-08-06T10:15:45.298Z,0.035,0.065,370,,,,,,,,,,,,,
68932b5750952d032e832bd9,SG-400-V2,DI,Ductile Iron,Automotive,Agricultural,Mining,Marine,88.5,95.3,3.3,3.9,2.2,3,0.2,0.9,0.01,0.08,0.008,0.025,0,0.2,0,0.6,0,0.3,0,0.9,565,193,8.5,2025-08-06T10:15:45.298Z,0.04,0.07,380,,,,,,,,,,,,,
68932b5750952d032e832bda,SG-400-V3,DI,Ductile Iron,Automotive,Agricultural,Mining,Marine,89,95.6,3.4,4,2.4,3.2,0.25,1,0.01,0.08,0.008,0.025,0,0.25,0,0.7,0,0.35,0,1,580,198,9.5,2025-08-06T10:15:45.298Z,0.045,0.075,390,,,,,,,,,,,,,
68932b5750952d032e832bdb,SG-450-V1,DI,Ductile Iron,Automotive,Agricultural,Mining,Marine,88,95,3.2,3.8,2,2.8,0.15,0.8,0.01,0.08,0.008,0.025,0,0.15,0,0.5,0,0.25,0,0.8,575,196,7,2025-08-06T10:15:45.298Z,0.035,0.065,390,,,,,,,,,,,,,
68932b5750952d032e832bdc,SG-450-V2,DI,Ductile Iron,Automotive,Agricultural,Mining,Marine,88.5,95.3,3.3,3.9,2.2,3,0.2,0.9,0.01,0.08,0.008,0.025,0,0.2,0,0.6,0,0.3,0,0.9,590,201,8,2025-08-06T10:15:45.298Z,0.04,0.07,400,,,,,,,,,,,,,
68932b5750952d032e832bdd,SG-450-V3,DI,Ductile Iron,Automotive,Agricultural,Mining,Marine,89,95.6,3.4,4,2.4,3.2,0.25,1,0.01,0.08,0.008,0.025,0,0.25,0,0.7,0,0.35,0,1,605,206,9,2025-08-06T10:15:45.298Z,0.045,0.075,410,,,,,,,,,,,,,
68932b5750952d032e832bde,SG-500-V1,DI,Ductile Iron,Automotive,Agricultural,Mining,Marine,88,95,3.2,3.8,2,2.8,0.15,0.8,0.01,0.08,0.008,0.025,0,0.15,0,0.5,0,0.25,0,0.8,600,204,6.5,2025-08-06T10:15:45.298Z,0.035,0.065,410,,,,,,,,,,,,,
68932b5750952d032e832bdf,SG-500-V2,DI,Ductile Iron,Automotive,Agricultural,Mining,Marine,88.5,95.3,3.3,3.9,2.2,3,0.2,0.9,0.01,0.08,0.008,0.025,0,0.2,0,0.6,0,0.3,0,0.9,615,209,7.5,2025-08-06T10:15:45.298Z,0.04,0.07,420,,,,,,,,,,,,,
68932b5750952d032e832be0,SG-500-V3,DI,Ductile Iron,Automotive,Agricultural,Mining,Marine,89,95.6,3.4,4,2.4,3.2,0.25,1,0.01,0.08,0.008,0.025,0,0.25,0,0.7,0,0.35,0,1,630,214,8.5,2025-08-06T10:15:45.298Z,0.045,0.075,430,,,,,,,,,,,,,
68932b5750952d032e832be1,SG-600-V1,DI,Ductile Iron,Automotive,Agricultural,Mining,Marine,88,95,3.2,3.8,2,2.8,0.15,0.8,0.01,0.08,0.008,0.025,0,0.15,0,0.5,0,0.25,0,0.8,625,212,6,2025-08-06T10:15:45.298Z,0.035,0.065,430,,,,,,,,,,,,,
68932b5750952d032e832be2,SG-600-V2,DI,Ductile Iron,Automotive,Agricultural,Mining,Marine,88.5,95.3,3.3,3.9,2.2,3,0.2,0.9,0.01,0.08,0.008,0.025,0,0.2,0,0.6,0,0.3,0,0.9,640,217,7,2025-08-06T10:15:45.298Z,0.04,0.07,440,,,,,,,,,,,,,
68932b5750952d032e832be3,SG-600-V3,DI,Ductile Iron,Automotive,Agricultural,Mining,Marine,89,95.6,3.4,4,2.4,3.2,0.25,1,0.01,0.08,0.008,0.025,0,0.25,0,0.7,0,0.35,0,1,655,222,8,2025-08-06T10:15:45.298Z,0.045,0.075,450,,,,,,,,,,,,,
68932b5750952d032e832be4,SG-700-V1,DI,Ductile Iron,Automotive,Agricultural,Mining,Marine,88,95,3.2,3.8,2,2.8,0.15,0.8,0.01,0.08,0.008,0.025,0,0.15,0,0.5,0,0.25,0,0.8,650,220,5.5,2025-08-06T10:15:45.298Z,0.035,0.065,450,,,,,,,,,,,,,
68932b5750952d032e832be5,SG-700-V2,DI,Ductile Iron,Automotive,Agricultural,Mining,Marine,88.5,95.3,3.3,3.9,2.2,3,0.2,0.9,0.01,0.08,0.008,0.025,0,0.2,0,0.6,0,0.3,0,0.9,665,225,6.5,2025-08-06T10:15:45.298Z,0.04,0.07,460,,,,,,,,,,,,,
68932b5750952d032e832be6,SG-700-V3,DI,Ductile Iron,Automotive,Agricultural,Mining,Marine,89,95.6,3.4,4,2.4,3.2,0.25,1,0.01,0.08,0.008,0.025,0,0.25,0,0.7,0,0.35,0,1,680,230,7.5,2025-08-06T10:15:45.298Z,0.045,0.075,470,,,,,,,,,,,,,
68932b5750952d032e832be7,SG-800-V1,DI,Ductile Iron,Automotive,Agricultural,Mining,Marine,88,95,3.2,3.8,2,2.8,0.15,0.8,0.01,0.08,0.008,0.025,0,0.15,0,0.5,0,0.25,0,0.8,675,228,5,2025-08-06T10:15:45.298Z,0.035,0.065,470,,,,,,,,,,,,,
68932b5750952d032e832be8,SG-800-V2,DI,Ductile Iron,Automotive,Agricultural,Mining,Marine,88.5,95.3,3.3,3.9,2.2,3,0.2,0.9,0.01,0.08,0.008,0.025,0,0.2,0,0.6,0,0.3,0,0.9,690,233,6,2025-08-06T10:15:45.298Z,0.04,0.07,480,,,,,,,,,,,,,
68932b5750952d032e832be9,SG-800-V3,DI,Ductile Iron,Automotive,Agricultural,Mining,Marine,89,95.6,3.4,4,2.4,3.2,0.25,1,0.01,0.08,0.008,0.025,0,0.25,0,0.7,0,0.35,0,1,705,238,7,2025-08-06T10:15:45.298Z,0.045,0.075,490,,,,,,,,,,,,,
68932b5750952d032e832bea,QT-400-V1,DI,Ductile Iron,Automotive,Agricultural,Mining,Marine,88,95,3.2,3.8,2,2.8,0.15,0.8,0.01,0.08,0.008,0.025,0,0.15,0,0.5,0,0.25,0,0.8,700,236,4.5,2025-08-06T10:15:45.298Z,0.035,0.065,490,,,,,,,,,,,,,
68932b5850952d032e832beb,QT-400-V2,DI,Ductile Iron,Automotive,Agricultural,Mining,Marine,88.5,95.3,3.3,3.9,2.2,3,0.2,0.9,0.01,0.08,0.008,0.025,0,0.2,0,0.6,0,0.3,0,0.9,715,241,5.5,2025-08-06T10:15:45.298Z,0.04,0.07,500,,,,,,,,,,,,,
68932b5850952d032e832bec,QT-400-V3,DI,Ductile Iron,Automotive,Agricultural,Mining,Marine,89,95.6,3.4,4,2.4,3.2,0.25,1,0.01,0.08,0.008,0.025,0,0.25,0,0.7,0,0.35,0,1,730,246,6.5,2025-08-06T10:15:45.298Z,0.045,0.075,510,,,,,,,,,,,,,
68932b5850952d032e832bed,QT-450-V1,DI,Ductile Iron,Automotive,Agricultural,Mining,Marine,88,95,3.2,3.8,2,2.8,0.15,0.8,0.01,0.08,0.008,0.025,0,0.15,0,0.5,0,0.25,0,0.8,725,244,4,2025-08-06T10:15:45.298Z,0.035,0.065,510,,,,,,,,,,,,,
68932b5850952d032e832bee,QT-450-V2,DI,Ductile Iron,Automotive,Agricultural,Mining,Marine,88.5,95.3,3.3,3.9,2.2,3,0.2,0.9,0.01,0.08,0.008,0.025,0,0.2,0,0.6,0,0.3,0,0.9,740,249,5,2025-08-06T10:15:45.298Z,0.04,0.07,520,,,,,,,,,,,,,
68932b5850952d032e832bef,QT-450-V3,DI,Ductile Iron,Automotive,Agricultural,Mining,Marine,89,95.6,3.4,4,2.4,3.2,0.25,1,0.01,0.08,0.008,0.025,0,0.25,0,0.7,0,0.35,0,1,755,254,6,2025-08-06T10:15:45.298Z,0.045,0.075,530,,,,,,,,,,,,,
68932b5850952d032e832bf0,QT-500-V1,DI,Ductile Iron,Automotive,Agricultural,Mining,Marine,88,95,3.2,3.8,2,2.8,0.15,0.8,0.01,0.08,0.008,0.025,0,0.15,0,0.5,0,0.25,0,0.8,750,252,3.5,2025-08-06T10:15:45.298Z,0.035,0.065,530,,,,,,,,,,,,,
68932b5850952d032e832bf1,QT-500-V2,DI,Ductile Iron,Automotive,Agricultural,Mining,Marine,88.5,95.3,3.3,3.9,2.2,3,0.2,0.9,0.01,0.08,0.008,0.025,0,0.2,0,0.6,0,0.3,0,0.9,765,257,4.5,2025-08-06T10:15:45.298Z,0.04,0.07,540,,,,,,,,,,,,,
68932b5850952d032e832bf2,QT-500-V3,DI,Ductile Iron,Automotive,Agricultural,Mining,Marine,89,95.6,3.4,4,2.4,3.2,0.25,1,0.01,0.08,0.008,0.025,0,0.25,0,0.7,0,0.35,0,1,780,262,5.5,2025-08-06T10:15:45.298Z,0.045,0.075,550,,,,,,,,,,,,,
68932b5850952d032e832bf3,QT-600-V1,DI,Ductile Iron,Automotive,Agricultural,Mining,Marine,88,95,3.2,3.8,2,2.8,0.15,0.8,0.01,0.08,0.008,0.025,0,0.15,0,0.5,0,0.25,0,0.8,775,260,3,2025-08-06T10:15:45.298Z,0.035,0.065,550,,,,,,,,,,,,,
68932b5850952d032e832bf4,QT-600-V2,DI,Ductile Iron,Automotive,Agricultural,Mining,Marine,88.5,95.3,3.3,3.9,2.2,3,0.2,0.9,0.01,0.08,0.008,0.025,0,0.2,0,0.6,0,0.3,0,0.9,790,265,4,2025-08-06T10:15:45.298Z,0.04,0.07,560,,,,,,,,,,,,,
68932b5850952d032e832bf5,QT-600-V3,DI,Ductile Iron,Automotive,Agricultural,Mining,Marine,89,95.6,3.4,4,2.4,3.2,0.25,1,0.01,0.08,0.008,0.025,0,0.25,0,0.7,0,0.35,0,1,805,270,5,2025-08-06T10:15:45.298Z,0.045,0.075,570,,,,,,,,,,,,,
68932b5850952d032e832bf6,QT-700-V1,DI,Ductile Iron,Automotive,Agricultural,Mining,Marine,88,95,3.2,3.8,2,2.8,0.15,0.8,0.01,0.08,0.008,0.025,0,0.15,0,0.5,0,0.25,0,0.8,800,268,2.5,2025-08-06T10:15:45.298Z,0.035,0.065,570,,,,,,,,,,,,,
68932b5850952d032e832bf7,QT-700-V2,DI,Ductile Iron,Automotive,Agricultural,Mining,Marine,88.5,95.3,3.3,3.9,2.2,3,0.2,0.9,0.01,0.08,0.008,0.025,0,0.2,0,0.6,0,0.3,0,0.9,815,273,3.5,2025-08-06T10:15:45.298Z,0.04,0.07,580,,,,,,,,,,,,,
68932b5850952d032e832bf8,QT-700-V3,DI,Ductile Iron,Automotive,Agricultural,Mining,Marine,89,95.6,3.4,4,2.4,3.2,0.25,1,0.01,0.08,0.008,0.025,0,0.25,0,0.7,0,0.35,0,1,830,278,4.5,2025-08-06T10:15:45.298Z,0.045,0.075,590,,,,,,,,,,,,,
68932b5850952d032e832bf9,CGI-300-10,CGI,Compacted Graphite Iron,Diesel Engines,Automotive,High Performance,,87,93,3.1,3.7,1.8,2.6,0.2,0.8,0.01,0.06,0.008,0.02,0,0.2,,,,,0.3,1.2,300,160,7,2025-08-06T10:15:45.298Z,0.008,0.025,200,0.01,0.05,,,,,,,,,,,
68932b5850952d032e832bfa,CGI-325-10,CGI,Compacted Graphite Iron,Diesel Engines,Automotive,High Performance,,87.1,93.05,3.12,3.71,1.83,2.62,0.21,0.81,0.01,0.06,0.008,0.02,0,0.205,,,,,0.31,1.22,315,164,6.85,2025-08-06T10:15:45.298Z,0.0085,0.0255,210,0.011,0.051,,,,,,,,,,,
68932b5850952d032e832bfb,CGI-350-10,CGI,Compacted Graphite Iron,Diesel Engines,Automotive,High Performance,,87.2,93.1,3.14,3.72,1.86,2.64,0.22,0.82,0.01,0.06,0.008,0.02,0,0.21,,,,,0.32,1.24,330,168,6.7,2025-08-06T10:15:45.298Z,0.009,0.026,220,0.012,0.052,,,,,,,,,,,
68932b5850952d032e832bfc,CGI-375-10,CGI,Compacted Graphite Iron,Diesel Engines,Automotive,High Performance,,87.3,93.15,3.16,3.73,1.89,2.66,0.23,0.83,0.01,0.06,0.008,0.02,0,0.215,,,,,0.33,1.26,345,172,6.55,2025-08-06T10:15:45.298Z,0.0095,0.0265,230,0.013,0.053,,,,,,,,,,,
68932b5850952d032e832bfd,CGI-400-10,CGI,Compacted Graphite Iron,Diesel Engines,Automotive,High Performance,,87.4,93.2,3.18,3.74,1.92,2.68,0.24,0.84,0.01,0.06,0.008,0.02,0,0.22,,,,,0.34,1.28,360,176,6.4,2025-08-06T10:15:45.298Z,0.01,0.027,240,0.014,0.054,,,,,,,,,,,
68932b5850952d032e832bfe,CGI-425-9,CGI,Compacted Graphite Iron,Diesel Engines,Automotive,High Performance,,87.5,93.25,3.2,3.75,1.95,2.7,0.25,0.85,0.01,0.06,0.008,0.02,0,0.225,,,,,0.35,1.3,375,180,6.25,2025-08-06T10:15:45.298Z,0.0105,0.0275,250,0.015,0.055,,,,,,,,,,,
68932b5850952d032e832bff,CGI-450-9,CGI,Compacted Graphite Iron,Diesel Engines,Automotive,High Performance,,87.6,93.3,3.22,3.76,1.98,2.72,0.26,0.86,0.01,0.06,0.008,0.02,0,0.23,,,,,0.36,1.32,390,184,6.1,2025-08-06T10:15:45.298Z,0.011,0.028,260,0.016,0.056,,,,,,,,,,,
68932b5850952d032e832c00,CGI-475-9,CGI,Compacted Graphite Iron,Diesel Engines,Automotive,High Performance,,87.7,93.35,3.24,3.77,2.01,2.74,0.27,0.87,0.01,0.06,0.008,0.02,0,0.235,,,,,0.37,1.34,405,188,5.95,2025-08-06T10:15:45.298Z,0.0115,0.0285,270,0.017,0.057,,,,,,,,,,,
68932b5850952d032e832c01,CGI-500-9,CGI,Compacted Graphite Iron,Diesel Engines,Automotive,High Performance,,87.8,93.4,3.26,3.78,2.04,2.76,0.28,0.88,0.01,0.06,0.008,0.02,0,0.24,,,,,0.38,1.36,420,192,5.8,2025-08-06T10:15:45.298Z,0.012,0.029,280,0.018,0.058,,,,,,,,,,,
68932b5850952d032e832c02,CGI-525-9,CGI,Compacted Graphite Iron,Diesel Engines,Automotive,High Performance,,87.9,93.45,3.28,3.79,2.07,2.78,0.29,0.89,0.01,0.06,0.008,0.02,0,0.245,,,,,0.39,1.38,435,196,5.65,2025-08-06T10:15:45.298Z,0.0125,0.0295,290,0.019,0.059,,,,,,,,,,,
68932b5850952d032e832c03,CGI-550-8,CGI,Compacted Graphite Iron,Diesel Engines,Automotive,High Performance,,88,93.5,3.3,3.8,2.1,2.8,0.3,0.9,0.01,0.06,0.008,0.02,0,0.25,,,,,0.4,1.4,450,200,5.5,2025-08-06T10:15:45.298Z,0.013,0.03,300,0.02,0.06,,,,,,,,,,,
68932b5850952d032e832c04,CGI-575-8,CGI,Compacted Graphite Iron,Diesel Engines,Automotive,High Performance,,88.1,93.55,3.32,3.81,2.13,2.82,0.31,0.91,0.01,0.06,0.008,0.02,0,0.255,,,,,0.41,1.42,465,204,5.35,2025-08-06T10:15:45.298Z,0.0135,0.0305,310,0.021,0.061,,,,,,,,,,,
68932b5850952d032e832c05,CGI-600-8,CGI,Compacted Graphite Iron,Diesel Engines,Automotive,High Performance,,88.2,93.6,3.34,3.82,2.16,2.84,0.32,0.92,0.01,0.06,0.008,0.02,0,0.26,,,,,0.42,1.44,480,208,5.2,2025-08-06T10:15:45.298Z,0.014,0.031,320,0.022,0.062,,,,,,,,,,,
68932b5850952d032e832c06,CGI-625-8,CGI,Compacted Graphite Iron,Diesel Engines,Automotive,High Performance,,88.3,93.65,3.36,3.83,2.19,2.86,0.33,0.93,0.01,0.06,0.008,0.02,0,0.265,,,,,0.43,1.46,495,212,5.05,2025-08-06T10:15:45.298Z,0.0145,0.0315,330,0.023,0.063,,,,,,,,,,,
68932b5850952d032e832c07,CGI-650-8,CGI,Compacted Graphite Iron,Diesel Engines,Automotive,High Performance,,88.4,93.7,3.38,3.84,2.22,2.88,0.34,0.94,0.01,0.06,0.008,0.02,0,0.27,,,,,0.44,1.48,510,216,4.9,2025-08-06T10:15:45.298Z,0.015,0.032,340,0.024,0.064,,,,,,,,,,,
68932b5850952d032e832c08,CGI-675-7,CGI,Compacted Graphite Iron,Diesel Engines,Automotive,High Performance,,88.5,93.75,3.4,3.85,2.25,2.9,0.35,0.95,0.01,0.06,0.008,0.02,0,0.275,,,,,0.45,1.5,525,220,4.75,2025-08-06T10:15:45.298Z,0.0155,0.0325,350,0.025,0.065,,,,,,,,,,,
68932b5850952d032e832c09,CGI-700-7,CGI,Compacted Graphite Iron,Diesel Engines,Automotive,High Performance,,88.6,93.8,3.42,3.86,2.28,2.92,0.36,0.96,0.01,0.06,0.008,0.02,0,0.28,,,,,0.46,1.52,540,224,4.6,2025-08-06T10:15:45.298Z,0.016,0.033,360,0.026,0.066,,,,,,,,,,,
68932b5850952d032e832c0a,CGI-725-7,CGI,Compacted Graphite Iron,Diesel Engines,Automotive,High Performance,,88.7,93.85,3.44,3.87,2.31,2.94,0.37,0.97,0.01,0.06,0.008,0.02,0,0.285,,,,,0.47,1.54,555,228,4.45,2025-08-06T10:15:45.298Z,0.0165,0.0335,370,0.027,0.067,,,,,,,,,,,
68932b5850952d032e832c0b,CGI-750-7,CGI,Compacted Graphite Iron,Diesel Engines,Automotive,High Performance,,88.8,93.9,3.46,3.88,2.34,2.96,0.38,0.98,0.01,0.06,0.008,0.02,0,0.29,,,,,0.48,1.56,570,232,4.3,2025-08-06T10:15:45.298Z,0.017,0.034,380,0.028,0.068,,,,,,,,,,,
68932b5850952d032e832c0c,CGI-775-7,CGI,Compacted Graphite Iron,Diesel Engines,Automotive,High Performance,,88.9,93.95,3.48,3.89,2.37,2.98,0.39,0.99,0.01,0.06,0.008,0.02,0,0.295,,,,,0.49,1.58,585,236,4.15,2025-08-06T10:15:45.298Z,0.0175,0.0345,390,0.029,0.069,,,,,,,,,,,
68932b5850952d032e832c0d,CGI-800-6,CGI,Compacted Graphite Iron,Diesel Engines,Automotive,High Performance,,89,94,3.5,3.9,2.4,3,0.4,1,0.01,0.06,0.008,0.02,0,0.3,,,,,0.5,1.6,600,240,4,2025-08-06T10:15:45.298Z,0.018,0.035,400,0.03,0.07,,,,,,,,,,,
68932b5850952d032e832c0e,CGI-825-6,CGI,Compacted Graphite Iron,Diesel Engines,Automotive,High Performance,,89.1,94.05,3.52,3.91,2.43,3.02,0.41,1.01,0.01,0.06,0.008,0.02,0,0.305,,,,,0.51,1.62,615,244,3.85,2025-08-06T10:15:45.298Z,0.0185,0.0355,410,0.031,0.071,,,,,,,,,,,
68932b5850952d032e832c0f,CGI-850-6,CGI,Compacted Graphite Iron,Diesel Engines,Automotive,High Performance,,89.2,94.1,3.54,3.92,2.46,3.04,0.42,1.02,0.01,0.06,0.008,0.02,0,0.31,,,,,0.52,1.64,630,248,3.7,2025-08-06T10:15:45.298Z,0.019,0.036,420,0.032,0.072,,,,,,,,,,,
68932b5850952d032e832c10,CGI-875-6,CGI,Compacted Graphite Iron,Diesel Engines,Automotive,High Performance,,89.3,94.15,3.56,3.93,2.49,3.06,0.43,1.03,0.01,0.06,0.008,0.02,0,0.315,,,,,0.53,1.66,645,252,3.55,2025-08-06T10:15:45.298Z,0.0195,0.0365,430,0.033,0.073,,,,,,,,,,,
68932b5850952d032e832c11,CGI-900-6,CGI,Compacted Graphite Iron,Diesel Engines,Automotive,High Performance,,89.4,94.2,3.58,3.94,2.52,3.08,0.44,1.04,0.01,0.06,0.008,0.02,0,0.32,,,,,0.54,1.68,660,256,3.4,2025-08-06T10:15:45.298Z,0.02,0.037,440,0.034,0.074,,,,,,,,,,,
68932b5850952d032e832c12,CGI-925-5,CGI,Compacted Graphite Iron,Diesel Engines,Automotive,High Performance,,89.5,94.25,3.6,3.95,2.55,3.1,0.45,1.05,0.01,0.06,0.008,0.02,0,0.325,,,,,0.55,1.7,675,260,3.25,2025-08-06T10:15:45.298Z,0.0205,0.0375,450,0.035,0.075,,,,,,,,,,,
68932b5850952d032e832c13,CGI-950-5,CGI,Compacted Graphite Iron,Diesel Engines,Automotive,High Performance,,89.6,94.3,3.62,3.96,2.58,3.12,0.46,1.06,0.01,0.06,0.008,0.02,0,0.33,,,,,0.56,1.72,690,264,3.1,2025-08-06T10:15:45.298Z,0.021,0.038,460,0.036,0.076,,,,,,,,,,,
68932b5850952d032e832c14,CGI-975-5,CGI,Compacted Graphite Iron,Diesel Engines,Automotive,High Performance,,89.7,94.35,3.64,3.97,2.61,3.14,0.47,1.07,0.01,0.06,0.008,0.02,0,0.335,,,,,0.57,1.74,705,268,2.95,2025-08-06T10:15:45.298Z,0.0215,0.0385,470,0.037,0.077,,,,,,,,,,,
68932b5850952d032e832c15,CGI-1000-5,CGI,Compacted Graphite Iron,Diesel Engines,Automotive,High Performance,,89.8,94.4,3.66,3.98,2.64,3.16,0.48,1.08,0.01,0.06,0.008,0.02,0,0.34,,,,,0.58,1.76,720,272,2.8,2025-08-06T10:15:45.298Z,0.022,0.039,480,0.038,0.078,,,,,,,,,,,
68932b5850952d032e832c16,CGI-1025-5,CGI,Compacted Graphite Iron,Diesel Engines,Automotive,High Performance,,89.9,94.45,3.68,3.99,2.67,3.18,0.49,1.09,0.01,0.06,0.008,0.02,0,0.345,,,,,0.59,1.78,735,276,2.65,2025-08-06T10:15:45.298Z,0.0225,0.0395,490,0.039,0.079,,,,,,,,,,,
68932b5850952d032e832c17,ADI-800-8,ADI,Austempered Ductile Iron,Gears,Crankshafts,Heavy Machinery,,89,94,3.4,3.9,2.2,2.9,0.25,0.9,0.005,0.04,0.005,0.015,,,0.5,4,0.15,0.8,0.3,1.5,800,250,6.5,2025-08-06T10:15:45.298Z,0.04,0.07,500,,,850,250,1,,,,,,,,
68932b5850952d032e832c18,ADI-850-8,ADI,Austempered Ductile Iron,Gears,Crankshafts,Heavy Machinery,,89.08,94.04,3.415,3.91,2.22,2.915,0.258,0.912,0.005,0.04,0.005,0.015,,,0.6,4.05,0.16,0.815,0.32,1.53,840,260,6.3,2025-08-06T10:15:45.298Z,0.041,0.071,530,,,855,260,1.1,,,,,,,,
68932b5850952d032e832c19,ADI-900-8,ADI,Austempered Ductile Iron,Gears,Crankshafts,Heavy Machinery,,89.16,94.08,3.43,3.92,2.24,2.93,0.266,0.924,0.005,0.04,0.005,0.015,,,0.7,4.1,0.17,0.83,0.34,1.56,880,270,6.1,2025-08-06T10:15:45.298Z,0.042,0.072,560,,,860,270,1.2,,,,,,,,
68932b5850952d032e832c1a,ADI-950-8,ADI,Austempered Ductile Iron,Gears,Crankshafts,Heavy Machinery,,89.24,94.12,3.445,3.93,2.26,2.945,0.274,0.936,0.005,0.04,0.005,0.015,,,0.8,4.15,0.18,0.845,0.36,1.59,920,280,5.9,2025-08-06T10:15:45.298Z,0.043,0.073,590,,,865,280,1.3,,,,,,,,
68932b5850952d032e832c1b,ADI-1000-8,ADI,Austempered Ductile Iron,Gears,Crankshafts,Heavy Machinery,,89.32,94.16,3.46,3.94,2.28,2.96,0.282,0.948,0.005,0.04,0.005,0.015,,,0.9,4.2,0.19,0.86,0.38,1.62,960,290,5.7,2025-08-06T10:15:45.298Z,0.044,0.074,620,,,870,290,1.4,,,,,,,,
68932b5850952d032e832c1c,ADI-1050-7,ADI,Austempered Ductile Iron,Gears,Crankshafts,Heavy Machinery,,89.4,94.2,3.475,3.95,2.3,2.975,0.29,0.96,0.005,0.04,0.005,0.015,,,1,4.25,0.2,0.875,0.4,1.65,1000,300,5.5,2025-08-06T10:15:45.298Z,0.045,0.075,650,,,875,300,1.5,,,,,,,,
68932b5850952d032e832c1d,ADI-1100-7,ADI,Austempered Ductile Iron,Gears,Crankshafts,Heavy Machinery,,89.48,94.24,3.49,3.96,2.32,2.99,0.298,0.972,0.005,0.04,0.005,0.015,,,1.1,4.3,0.21,0.89,0.42,1.68,1040,310,5.3,2025-08-06T10:15:45.298Z,0.046,0.076,680,,,880,310,1.6,,,,,,,,
68932b5850952d032e832c1e,ADI-1150-7,ADI,Austempered Ductile Iron,Gears,Crankshafts,Heavy Machinery,,89.56,94.28,3.505,3.97,2.34,3.005,0.306,0.984,0.005,0.04,0.005,0.015,,,1.2,4.35,0.22,0.905,0.44,1.71,1080,320,5.1,2025-08-06T10:15:45.298Z,0.047,0.077,710,,,885,320,1.7,,,,,,,,
68932b5850952d032e832c1f,ADI-1200-7,ADI,Austempered Ductile Iron,Gears,Crankshafts,Heavy Machinery,,89.64,94.32,3.52,3.98,2.36,3.02,0.314,0.996,0.005,0.04,0.005,0.015,,,1.3,4.4,0.23,0.92,0.46,1.74,1120,330,4.9,2025-08-06T10:15:45.298Z,0.048,0.078,740,,,890,330,1.8,,,,,,,,
68932b5850952d032e832c20,ADI-1250-7,ADI,Austempered Ductile Iron,Gears,Crankshafts,Heavy Machinery,,89.72,94.36,3.535,3.99,2.38,3.035,0.322,1.008,0.005,0.04,0.005,0.015,,,1.4,4.45,0.24,0.935,0.48,1.77,1160,340,4.7,2025-08-06T10:15:45.298Z,0.049,0.079,770,,,895,340,1.9,,,,,,,,
68932b5850952d032e832c21,ADI-1300-6,ADI,Austempered Ductile Iron,Gears,Crankshafts,Heavy Machinery,,89.8,94.4,3.55,4,2.4,3.05,0.33,1.02,0.005,0.04,0.005,0.015,,,1.5,4.5,0.25,0.95,0.5,1.8,1200,350,4.5,2025-08-06T10:15:45.298Z,0.05,0.08,800,,,900,350,2,,,,,,,,
68932b5850952d032e832c22,ADI-1350-6,ADI,Austempered Ductile Iron,Gears,Crankshafts,Heavy Machinery,,89.88,94.44,3.565,4.01,2.42,3.065,0.338,1.032,0.005,0.04,0.005,0.015,,,1.6,4.55,0.26,0.965,0.52,1.83,1240,360,4.3,2025-08-06T10:15:45.298Z,0.051,0.081,830,,,905,360,2.1,,,,,,,,
68932b5850952d032e832c23,ADI-1400-6,ADI,Austempered Ductile Iron,Gears,Crankshafts,Heavy Machinery,,89.96,94.48,3.58,4.02,2.44,3.08,0.346,1.044,0.005,0.04,0.005,0.015,,,1.7,4.6,0.27,0.98,0.54,1.86,1280,370,4.1,2025-08-06T10:15:45.298Z,0.052,0.082,860,,,910,370,2.2,,,,,,,,
68932b5850952d032e832c24,ADI-1450-6,ADI,Austempered Ductile Iron,Gears,Crankshafts,Heavy Machinery,,90.04,94.52,3.595,4.03,2.46,3.095,0.354,1.056,0.005,0.04,0.005,0.015,,,1.8,4.65,0.28,0.995,0.56,1.89,1320,380,3.9,2025-08-06T10:15:45.298Z,0.053,0.083,890,,,915,380,2.3,,,,,,,,
68932b5850952d032e832c25,ADI-1500-6,ADI,Austempered Ductile Iron,Gears,Crankshafts,Heavy Machinery,,90.12,94.56,3.61,4.04,2.48,3.11,0.362,1.068,0.005,0.04,0.005,0.015,,,1.9,4.7,0.29,1.01,0.58,1.92,1360,390,3.7,2025-08-06T10:15:45.298Z,0.054,0.084,920,,,920,390,2.4,,,,,,,,
68932b5850952d032e832c26,ADI-1550-5,ADI,Austempered Ductile Iron,Gears,Crankshafts,Heavy Machinery,,90.2,94.6,3.625,4.05,2.5,3.125,0.37,1.08,0.005,0.04,0.005,0.015,,,2,4.75,0.3,1.025,0.6,1.95,1400,400,3.5,2025-08-06T10:15:45.298Z,0.055,0.085,950,,,925,400,2.5,,,,,,,,
68932b5850952d032e832c27,ADI-1600-5,ADI,Austempered Ductile Iron,Gears,Crankshafts,Heavy Machinery,,90.28,94.64,3.64,4.06,2.52,3.14,0.378,1.092,0.005,0.04,0.005,0.015,,,2.1,4.8,0.31,1.04,0.62,1.98,1440,410,3.3,2025-08-06T10:15:45.298Z,0.056,0.086,980,,,930,410,2.6,,,,,,,,
68932b5850952d032e832c28,ADI-1650-5,ADI,Austempered Ductile Iron,Gears,Crankshafts,Heavy Machinery,,90.36,94.68,3.655,4.07,2.54,3.155,0.386,1.104,0.005,0.04,0.005,0.015,,,2.2,4.85,0.32,1.055,0.64,2.01,1480,420,3.1,2025-08-06T10:15:45.298Z,0.057,0.087,1010,,,935,420,2.7,,,,,,,,
68932b5850952d032e832c29,ADI-1700-5,ADI,Austempered Ductile Iron,Gears,Crankshafts,Heavy Machinery,,90.44,94.72,3.67,4.08,2.56,3.17,0.394,1.116,0.005,0.04,0.005,0.015,,,2.3,4.9,0.33,1.07,0.66,2.04,1520,430,2.9,2025-08-06T10:15:45.298Z,0.058,0.088,1040,,,940,430,2.8,,,,,,,,
68932b5850952d032e832c2a,ADI-1750-5,ADI,Austempered Ductile Iron,Gears,Crankshafts,Heavy Machinery,,90.52,94.76,3.685,4.09,2.58,3.185,0.402,1.128,0.005,0.04,0.005,0.015,,,2.4,4.95,0.34,1.085,0.68,2.07,1560,440,2.7,2025-08-06T10:15:45.298Z,0.059,0.089,1070,,,945,440,2.9,,,,,,,,
68932b5850952d032e832c2b,ADI-1800-4,ADI,Austempered Ductile Iron,Gears,Crankshafts,Heavy Machinery,,90.6,94.8,3.7,4.1,2.6,3.2,0.41,1.14,0.005,0.04,0.005,0.015,,,2.5,5,0.35,1.1,0.7,2.1,1600,450,2.5,2025-08-06T10:15:45.298Z,0.06,0.09,1100,,,950,450,3,,,,,,,,
68932b5850952d032e832c2c,ADI-1850-4,ADI,Austempered Ductile Iron,Gears,Crankshafts,Heavy Machinery,,90.68,94.84,3.715,4.11,2.62,3.215,0.418,1.152,0.005,0.04,0.005,0.015,,,2.6,5.05,0.36,1.115,0.72,2.13,1640,460,2.3,2025-08-06T10:15:45.298Z,0.061,0.091,1130,,,955,460,3.1,,,,,,,,
68932b5850952d032e832c2d,ADI-1900-4,ADI,Austempered Ductile Iron,Gears,Crankshafts,Heavy Machinery,,90.76,94.88,3.73,4.12,2.64,3.23,0.426,1.164,0.005,0.04,0.005,0.015,,,2.7,5.1,0.37,1.13,0.74,2.16,1680,470,2.1,2025-08-06T10:15:45.298Z,0.062,0.092,1160,,,960,470,3.2,,,,,,,,
68932b5850952d032e832c2e,ADI-1950-4,ADI,Austempered Ductile Iron,Gears,Crankshafts,Heavy Machinery,,90.84,94.92,3.745,4.13,2.66,3.245,0.434,1.176,0.005,0.04,0.005,0.015,,,2.8,5.15,0.38,1.145,0.76,2.19,1720,480,1.9,2025-08-06T10:15:45.298Z,0.063,0.093,1190,,,965,480,3.3,,,,,,,,
68932b5850952d032e832c2f,ADI-2000-4,ADI,Austempered Ductile Iron,Gears,Crankshafts,Heavy Machinery,,90.92,94.96,3.76,4.14,2.68,3.26,0.442,1.188,0.005,0.04,0.005,0.015,,,2.9,5.2,0.39,1.16,0.78,2.22,1760,490,1.7,2025-08-06T10:15:45.298Z,0.064,0.094,1220,,,970,490,3.4,,,,,,,,
68932b5850952d032e832c30,NI-RESIST-Type1-V1,Ni-Resist,Corrosion Resistant Cast Iron,Chemical Processing,Marine,High Temperature,,65,75,2.4,3.2,1,3,0.5,1.5,0.01,0.08,0.008,0.02,1.75,3.25,13.5,16.5,0,1,0,1,140,120,8,2025-08-06T10:15:45.298Z,,,,,,,,,Excellent,500,,,,,,
68932b5850952d032e832c31,NI-RESIST-Type1-V2,Ni-Resist,Corrosion Resistant Cast Iron,Chemical Processing,Marine,High Temperature,,66,76,2.5,3.3,1.1,3.2,0.6,1.6,0.01,0.08,0.008,0.02,1.95,3.45,14,17,0,1.2,0,1,150,128,9,2025-08-06T10:15:45.298Z,,,,,,,,,Excellent,500,,,,,,
68932b5850952d032e832c32,NI-RESIST-Type1-V3,Ni-Resist,Corrosion Resistant Cast Iron,Chemical Processing,Marine,High Temperature,,67,77,2.6,3.4,1.2,3.4,0.7,1.7,0.01,0.08,0.008,0.02,2.15,3.65,14.5,17.5,0,1.4,0,1,160,136,10,2025-08-06T10:15:45.298Z,,,,,,,,,Excellent,500,,,,,,
68932b5850952d032e832c33,NI-RESIST-Type2-V1,Ni-Resist,Corrosion Resistant Cast Iron,Chemical Processing,Marine,High Temperature,,65,75,2.4,3.2,1,3,0.5,1.5,0.01,0.08,0.008,0.02,2.25,3.75,15.5,18.5,0,1,0,1,160,135,8,2025-08-06T10:15:45.298Z,,,,,,,,,Excellent,550,,,,,,
68932b5850952d032e832c34,NI-RESIST-Type2-V2,Ni-Resist,Corrosion Resistant Cast Iron,Chemical Processing,Marine,High Temperature,,66,76,2.5,3.3,1.1,3.2,0.6,1.6,0.01,0.08,0.008,0.02,2.45,3.95,16,19,0,1.2,0,1,170,143,9,2025-08-06T10:15:45.298Z,,,,,,,,,Excellent,550,,,,,,
68932b5850952d032e832c35,NI-RESIST-Type2-V3,Ni-Resist,Corrosion Resistant Cast Iron,Chemical Processing,Marine,High Temperature,,67,77,2.6,3.4,1.2,3.4,0.7,1.7,0.01,0.08,0.008,0.02,2.65,4.15,16.5,19.5,0,1.4,0,1,180,151,10,2025-08-06T10:15:45.298Z,,,,,,,,,Excellent,550,,,,,,
68932b5850952d032e832c36,NI-RESIST-Type3-V1,Ni-Resist,Corrosion Resistant Cast Iron,Chemical Processing,Marine,High Temperature,,65,75,2.4,3.2,1,3,0.5,1.5,0.01,0.08,0.008,0.02,2.75,4.25,17.5,20.5,0,1,5.5,7.5,180,150,8,2025-08-06T10:15:45.298Z,,,,,,,,,Excellent,600,,,,,,
68932b5850952d032e832c37,NI-RESIST-Type3-V2,Ni-Resist,Corrosion Resistant Cast Iron,Chemical Processing,Marine,High Temperature,,66,76,2.5,3.3,1.1,3.2,0.6,1.6,0.01,0.08,0.008,0.02,2.95,4.45,18,21,0,1.2,6,8,190,158,9,2025-08-06T10:15:45.298Z,,,,,,,,,Excellent,600,,,,,,
68932b5850952d032e832c38,NI-RESIST-Type3-V3,Ni-Resist,Corrosion Resistant Cast Iron,Chemical Processing,Marine,High Temperature,,67,77,2.6,3.4,1.2,3.4,0.7,1.7,0.01,0.08,0.008,0.02,3.15,4.65,18.5,21.5,0,1.4,6.5,8.5,200,166,10,2025-08-06T10:15:45.298Z,,,,,,,,,Excellent,600,,,,,,
68932b5850952d032e832c39,NI-RESIST-Type4-V1,Ni-Resist,Corrosion Resistant Cast Iron,Chemical Processing,Marine,High Temperature,,65,75,2.4,3.2,1,3,0.5,1.5,0.01,0.08,0.008,0.02,3.25,4.75,19.5,22.5,0,1,5.5,7.5,200,165,8,2025-08-06T10:15:45.298Z,,,,,,,,,Excellent,650,,,,,,
68932b5850952d032e832c3a,NI-RESIST-Type4-V2,Ni-Resist,Corrosion Resistant Cast Iron,Chemical Processing,Marine,High Temperature,,66,76,2.5,3.3,1.1,3.2,0.6,1.6,0.01,0.08,0.008,0.02,3.45,4.95,20,23,0,1.2,6,8,210,173,9,2025-08-06T10:15:45.298Z,,,,,,,,,Excellent,650,,,,,,
68932b5850952d032e832c3b,NI-RESIST-Type4-V3,Ni-Resist,Corrosion Resistant Cast Iron,Chemical Processing,Marine,High Temperature,,67,77,2.6,3.4,1.2,3.4,0.7,1.7,0.01,0.08,0.008,0.02,3.65,5.15,20.5,23.5,0,1.4,6.5,8.5,220,181,10,2025-08-06T10:15:45.298Z,,,,,,,,,Excellent,650,,,,,,
68932b5850952d032e832c3c,NI-RESIST-Type5-V1,Ni-Resist,Corrosion Resistant Cast Iron,Chemical Processing,Marine,High Temperature,,65,75,2.4,3.2,1,3,0.5,1.5,0.01,0.08,0.008,0.02,3.75,5.25,21.5,24.5,0,1,5.5,7.5,220,180,8,2025-08-06T10:15:45.298Z,,,,,,,,,Excellent,700,,,,,,
68932b5850952d032e832c3d,NI-RESIST-Type5-V2,Ni-Resist,Corrosion Resistant Cast Iron,Chemical Processing,Marine,High Temperature,,66,76,2.5,3.3,1.1,3.2,0.6,1.6,0.01,0.08,0.008,0.02,3.95,5.45,22,25,0,1.2,6,8,230,188,9,2025-08-06T10:15:45.298Z,,,,,,,,,Excellent,700,,,,,,
68932b5850952d032e832c3e,NI-RESIST-Type5-V3,Ni-Resist,Corrosion Resistant Cast Iron,Chemical Processing,Marine,High Temperature,,67,77,2.6,3.4,1.2,3.4,0.7,1.7,0.01,0.08,0.008,0.02,4.15,5.65,22.5,25.5,0,1.4,6.5,8.5,240,196,10,2025-08-06T10:15:45.298Z,,,,,,,,,Excellent,700,,,,,,
68932b5850952d032e832c3f,HIGH-SI-14-2,High-Si,High Silicon Cast Iron,Chemical Equipment,Acid Resistant,Pumps,,78,85,0.8,1.2,14,17,0.4,0.8,0.01,0.05,0.005,0.02,0,0.5,,,0,0.5,0,0.5,160,170,0.5,2025-08-06T10:15:45.298Z,,,,,,,,,,,Excellent,,,,,
68932b5850952d032e832c40,HIGH-SI-15-2,High-Si,High Silicon Cast Iron,Chemical Equipment,Acid Resistant,Pumps,,78.5,85.3,0.85,1.23,14.3,17.2,0.42,0.83,0.01,0.05,0.005,0.02,0,0.55,,,0,0.53,0,0.5,168,180,0.6,2025-08-06T10:15:45.298Z,,,,,,,,,,,Excellent,,,,,
68932b5850952d032e832c41,HIGH-SI-16-3,High-Si,High Silicon Cast Iron,Chemical Equipment,Acid Resistant,Pumps,,79,85.6,0.9,1.26,14.6,17.4,0.44,0.86,0.01,0.05,0.005,0.02,0,0.6,,,0,0.56,0,0.5,176,190,0.7,2025-08-06T10:15:45.298Z,,,,,,,,,,,Excellent,,,,,
68932b5850952d032e832c42,HIGH-SI-17-3,High-Si,High Silicon Cast Iron,Chemical Equipment,Acid Resistant,Pumps,,79.5,85.9,0.95,1.29,14.9,17.6,0.46,0.89,0.01,0.05,0.005,0.02,0,0.65,,,0,0.59,0,0.5,184,200,0.8,2025-08-06T10:15:45.298Z,,,,,,,,,,,Excellent,,,,,
68932b5850952d032e832c43,HIGH-SI-18-4,High-Si,High Silicon Cast Iron,Chemical Equipment,Acid Resistant,Pumps,,80,86.2,1,1.32,15.2,17.8,0.48,0.92,0.01,0.05,0.005,0.02,0,0.7,,,0,0.62,0,0.5,192,210,0.9,2025-08-06T10:15:45.298Z,,,,,,,,,,,Excellent,,,,,
68932b5850952d032e832c44,HIGH-SI-19-4,High-Si,High Silicon Cast Iron,Chemical Equipment,Acid Resistant,Pumps,,80.5,86.5,1.05,1.35,15.5,18,0.5,0.95,0.01,0.05,0.005,0.02,0,0.75,,,0,0.65,0,0.5,200,220,1,2025-08-06T10:15:45.298Z,,,,,,,,,,,Excellent,,,,,
68932b5850952d032e832c45,HIGH-SI-20-5,High-Si,High Silicon Cast Iron,Chemical Equipment,Acid Resistant,Pumps,,81,86.8,1.1,1.38,15.8,18.2,0.52,0.98,0.01,0.05,0.005,0.02,0,0.8,,,0,0.68,0,0.5,208,230,1.1,2025-08-06T10:15:45.298Z,,,,,,,,,,,Excellent,,,,,
68932b5850952d032e832c46,HIGH-SI-21-5,High-Si,High Silicon Cast Iron,Chemical Equipment,Acid Resistant,Pumps,,81.5,87.1,1.15,1.41,16.1,18.4,0.54,1.01,0.01,0.05,0.005,0.02,0,0.85,,,0,0.71,0,0.5,216,240,1.2,2025-08-06T10:15:45.298Z,,,,,,,,,,,Excellent,,,,,
68932b5850952d032e832c47,HIGH-SI-22-6,High-Si,High Silicon Cast Iron,Chemical Equipment,Acid Resistant,Pumps,,82,87.4,1.2,1.44,16.4,18.6,0.56,1.04,0.01,0.05,0.005,0.02,0,0.9,,,0,0.74,0,0.5,224,250,1.3,2025-08-06T10:15:45.298Z,,,,,,,,,,,Excellent,,,,,
68932b5850952d032e832c48,HIGH-SI-23-6,High-Si,High Silicon Cast Iron,Chemical Equipment,Acid Resistant,Pumps,,82.5,87.7,1.25,1.47,16.7,18.8,0.58,1.07,0.01,0.05,0.005,0.02,0,0.95,,,0,0.77,0,0.5,232,260,1.4,2025-08-06T10:15:45.298Z,,,,,,,,,,,Excellent,,,,,
68932b5850952d032e832c49,WEAR-RESISTANT-CI-1,Special,Special Purpose Cast Iron,Wear Resistant,Industrial,Specialized,,82,90,2.8,3.6,1.5,2.5,0.3,1.2,0.01,0.08,0.005,0.03,2,5,0,1,0,0.8,0,1,200,300,1,2025-08-06T10:15:45.298Z,,,,,,,,,,,,0,0.5,0,0.05,Wear Resistant
68932b5850952d032e832c4a,HIGH-TEMP-CI-2,Special,Special Purpose Cast Iron,High Temp,Industrial,Specialized,,82.2,90.1,2.83,3.62,1.55,2.53,0.32,1.24,0.01,0.08,0.005,0.03,1,3,1,3,0,0.85,0,1.1,225,208,1.1,2025-08-06T10:15:45.298Z,,,,,,,,,,,,0,0.1,0,0.2,High Temp
68932b5850952d032e832c4b,MAGNETIC-CI-3,Special,Special Purpose Cast Iron,Magnetic,Industrial,Specialized,,82.4,90.2,2.86,3.64,1.6,2.56,0.34,1.28,0.01,0.08,0.005,0.03,1,3,0,0.5,0,0.9,0,1.2,250,190,1.2,2025-08-06T10:15:45.298Z,,,,,,,,,,,,0,0.1,0,0.05,Magnetic
68932b5850952d032e832c4c,NON-MAGNETIC-CI-4,Special,Special Purpose Cast Iron,Non Magnetic,Industrial,Specialized,,82.6,90.3,2.89,3.66,1.65,2.59,0.36,1.32,0.01,0.08,0.005,0.03,1,3,0,0.5,0,0.95,0,1.3,275,195,1.3,2025-08-06T10:15:45.298Z,,,,,,,,,,,,0,0.1,0,0.05,Non Magnetic
68932b5850952d032e832c4d,ABRASION-CI-5,Special,Special Purpose Cast Iron,Abrasion,Industrial,Specialized,,82.8,90.4,2.92,3.68,1.7,2.62,0.38,1.36,0.01,0.08,0.005,0.03,2,5,0,0.5,0,1,0,1.4,300,340,1.4,2025-08-06T10:15:45.298Z,,,,,,,,,,,,0,0.1,0,0.05,Abrasion
68932b5850952d032e832c4e,IMPACT-CI-6,Special,Special Purpose Cast Iron,Impact,Industrial,Specialized,,83,90.5,2.95,3.7,1.75,2.65,0.4,1.4,0.01,0.08,0.005,0.03,0.2,1.5,0,2,0,1.05,0,1.5,325,210,1.5,2025-08-06T10:15:45.298Z,,,,,,,,,,,,0,0.1,0,0.05,Impact
68932b5950952d032e832c4f,FATIGUE-CI-7,Special,Special Purpose Cast Iron,Fatigue,Industrial,Specialized,,83.2,90.6,2.98,3.72,1.8,2.68,0.42,1.44,0.01,0.08,0.005,0.03,0.2,1.5,0,2,0,1.1,0,1.6,350,220,1.6,2025-08-06T10:15:45.298Z,,,,,,,,,,,,0,0.1,0,0.05,Fatigue
68932b5950952d032e832c50,CRYOGENIC-CI-8,Special,Special Purpose Cast Iron,Cryogenic,Industrial,Specialized,,83.4,90.7,3.01,3.74,1.85,2.71,0.44,1.48,0.01,0.08,0.005,0.03,0.2,1.5,0,2,0,1.15,0,1.7,375,230,1.7,2025-08-06T10:15:45.298Z,,,,,,,,,,,,0,0.1,0,0.05,Cryogenic
68932b5950952d032e832c51,HEAT-SHOCK-CI-9,Special,Special Purpose Cast Iron,Heat Shock,Industrial,Specialized,,83.6,90.8,3.04,3.76,1.9,2.74,0.46,1.52,0.01,0.08,0.005,0.03,1,3,1,3,0,1.2,0,1.8,400,264,1.8,2025-08-06T10:15:45.298Z,,,,,,,,,,,,0,0.1,0,0.05,Heat Shock
68932b5950952d032e832c52,EROSION-CI-10,Special,Special Purpose Cast Iron,Erosion,Industrial,Specialized,,83.8,90.9,3.07,3.78,1.95,2.77,0.48,1.56,0.01,0.08,0.005,0.03,0.2,1.5,0,2,0,1.25,0,1.9,425,250,1.9,2025-08-06T10:15:45.298Z,,,,,,,,,,,,0,0.1,0,0.05,Erosion
68932b5950952d032e832c53,CAVITATION-CI-11,Special,Special Purpose Cast Iron,Cavitation,Industrial,Specialized,,84,91,3.1,3.8,2,2.8,0.5,1.6,0.01,0.08,0.005,0.03,0.2,1.5,0,2,0,1.3,0,2,450,260,2,2025-08-06T10:15:45.298Z,,,,,,,,,,,,0,0.1,0,0.05,Cavitation
68932b5950952d032e832c54,THERMAL-CYCLE-CI-12,Special,Special Purpose Cast Iron,Thermal Cycle,Industrial,Specialized,,84.2,91.1,3.13,3.82,2.05,2.83,0.52,1.64,0.01,0.08,0.005,0.03,0.2,1.5,0,2,0,1.35,0,2.1,475,270,2.1,2025-08-06T10:15:45.298Z,,,,,,,,,,,,0,0.1,0,0.05,Thermal Cycle
68932b5950952d032e832c55,STRESS-RELIEF-CI-13,Special,Special Purpose Cast Iron,Stress Relief,Industrial,Specialized,,84.4,91.2,3.16,3.84,2.1,2.86,0.54,1.68,0.01,0.08,0.005,0.03,0.2,1.5,0,2,0,1.4,0,2.2,500,280,2.2,2025-08-06T10:15:45.298Z,,,,,,,,,,,,0,0.1,0,0.05,Stress Relief
68932b5950952d032e832c56,DAMPING-CI-14,Special,Special Purpose Cast Iron,Damping,Industrial,Specialized,,84.6,91.3,3.19,3.86,2.15,2.89,0.56,1.72,0.01,0.08,0.005,0.03,0.2,1.5,0,2,0,1.45,0,2.3,525,290,2.3,2025-08-06T10:15:45.298Z,,,,,,,,,,,,0,0.1,0,0.05,Damping
68932b5950952d032e832c57,HARDENING-CI-15,Special,Special Purpose Cast Iron,Hardening,Industrial,Specialized,,84.8,91.4,3.22,3.88,2.2,2.92,0.58,1.76,0.01,0.08,0.005,0.03,0.2,1.5,0,2,0,1.5,0,2.4,550,300,2.4,2025-08-06T10:15:45.298Z,,,,,,,,,,,,0,0.1,0,0.05,Hardening